# Step     T (K)     E_KS (eV)    E_tot (eV)   Vol (A^3)    P (kBar)
     1      0.00  -16601.42116  -16601.40851     965.350     187.056
     2      0.14  -16601.42277  -16601.40822     965.350     187.029
     3      0.53  -16601.42716  -16601.40741     965.350     187.024
     4      1.11  -16601.43319  -16601.40631     965.350     186.979
     5      1.77  -16601.43919  -16601.40526     965.350     186.970
     6      2.37  -16601.44335  -16601.40460     965.350     186.929
     7      2.81  -16601.44415  -16601.40466     965.350     186.934
     8      2.98  -16601.44068  -16601.40562     965.350     186.940
     9      2.86  -16601.43295  -16601.40742     965.350     186.989
    10      2.48  -16601.42208  -16601.40982     965.350     187.074
    11      1.97  -16601.41023  -16601.41233     965.350     187.116
    12      1.59  -16601.40045  -16601.41442     965.350     187.185
    13      1.66  -16601.39598  -16601.41556     965.350     187.231
    14      2.59  -16601.39948  -16601.41542     965.350     187.213
    15      4.88  -16601.41195  -16601.41402     965.350     187.144
    16      9.02  -16601.43190  -16601.41196     965.350     187.069
    17     15.55  -16601.45456  -16601.41068     965.350     187.049
    18     25.02  -16601.47079  -16601.41184     965.350     187.089
    19     38.07  -16601.46591  -16601.41616     965.350     187.245
    20     55.78  -16601.42422  -16601.42551     965.350     187.658
    21     80.32  -16601.33410  -16601.44346     965.350     188.294
    22    116.35  -16601.18929  -16601.47114     965.350     189.223
    23    173.28  -16600.99391  -16601.50560     965.350     190.499
    24    269.35  -16600.77845  -16601.54577     965.350     192.274
    25    436.72  -16600.61657  -16601.60281     965.350     194.351
    26    722.22  -16600.61053  -16601.69953     965.350     197.142
    27   1169.73  -16600.83823  -16601.85800     965.350     201.051
    28   1764.08  -16601.28408  -16602.06986     965.350     206.899
    29   2352.47  -16601.83173  -16602.27901     965.350     214.930
    30   2657.62  -16602.31311  -16602.41434     965.350     223.446
    31   2491.22  -16602.49115  -16602.34995     965.350     228.959
    32   1958.61  -16602.40588  -16602.14558     965.350     228.486
    33   1341.24  -16602.24761  -16601.91765     965.350     222.332
    34    842.07  -16602.17892  -16601.73490     965.350     214.652
    35    511.01  -16602.27582  -16601.61505     965.350     208.128
    36    314.15  -16602.51793  -16601.54221     965.350     203.480
    37    202.34  -16602.83592  -16601.49607     965.350     200.414
    38    138.06  -16603.15842  -16601.46563     965.350     198.534
    39     98.42  -16603.43366  -16601.44731     965.350     197.499
    40     71.20  -16603.63221  -16601.43774     965.350     196.899
    41     50.69  -16603.74785  -16601.43239     965.350     196.696
    42     34.79  -16603.79609  -16601.42849     965.350     196.685
    43     22.96  -16603.80463  -16601.42543     965.350     196.793
    44     14.96  -16603.80115  -16601.42338     965.350     196.949
    45     10.34  -16603.80489  -16601.42230     965.350     197.079
    46      8.32  -16603.82422  -16601.42195     965.350     197.247
    47      7.97  -16603.85819  -16601.42204     965.350     197.363
    48      8.36  -16603.90007  -16601.42236     965.350     197.499
    49      8.78  -16603.94128  -16601.42275     965.350     197.582
    50      8.78  -16603.97470  -16601.42306     965.350     197.692
    51      8.24  -16603.99665  -16601.42321     965.350     197.812
    52      7.26  -16604.00735  -16601.42325     965.350     197.931
    53      6.10  -16604.01004  -16601.42324     965.350     198.060
    54      5.05  -16604.00930  -16601.42324     965.350     198.144
    55      4.33  -16604.00942  -16601.42327     965.350     198.272
    56      4.06  -16604.01311  -16601.42330     965.350     198.381
    57      4.20  -16604.02107  -16601.42330     965.350     198.483
    58      4.63  -16604.03200  -16601.42326     965.350     198.576
    59      5.18  -16604.04333  -16601.42318     965.350     198.663
    60      5.65  -16604.05217  -16601.42306     965.350     198.756
    61      5.91  -16604.05633  -16601.42289     965.350     198.861
    62      5.93  -16604.05517  -16601.42271     965.350     199.026
    63      5.78  -16604.04985  -16601.42252     965.350     199.155
    64      5.66  -16604.04309  -16601.42236     965.350     199.315
    65      5.81  -16604.03821  -16601.42226     965.350     199.464
    66      6.49  -16604.03807  -16601.42223     965.350     199.650
    67      7.89  -16604.04410  -16601.42235     965.350     199.817
    68     10.13  -16604.05556  -16601.42270     965.350     200.008
    69     13.23  -16604.06934  -16601.42315     965.350     200.273
    70     17.19  -16604.08125  -16601.42374     965.350     200.566
    71     22.05  -16604.08706  -16601.42443     965.350     200.907
    72     28.11  -16604.08443  -16601.42534     965.350     201.332
    73     36.06  -16604.07413  -16601.42668     965.350     201.899
    74     47.22  -16604.06032  -16601.42872     965.350     202.544
    75     63.76  -16604.04966  -16601.43174     965.350     203.268
    76     89.01  -16604.04908  -16601.43626     965.350     204.147
    77    127.63  -16604.06231  -16601.44306     965.350     205.331
    78    186.01  -16604.08633  -16601.45366     965.350     206.863
    79    272.19  -16604.10769  -16601.47053     965.350     208.822
    80    395.32  -16604.09994  -16601.49642     965.350     211.528
    81    563.40  -16604.02611  -16601.53416     965.350     215.314
    82    778.03  -16603.84586  -16601.58482     965.350     220.478
    83   1026.00  -16603.52986  -16601.64514     965.350     227.082
    84   1270.96  -16603.07544  -16601.70582     965.350     235.027
    85   1454.84  -16602.50514  -16601.75012     965.350     243.474
    86   1519.11  -16601.85419  -16601.76267     965.350     251.347
    87   1438.32  -16601.14909  -16601.73942     965.350     257.572
    88   1237.68  -16600.39707  -16601.68947     965.350     261.459
    89    976.73  -16599.60148  -16601.63078     965.350     263.229
    90    715.22  -16598.77550  -16601.57800     965.350     263.862
    91    490.98  -16597.95289  -16601.53841     965.350     264.034
    92    317.88  -16597.18222  -16601.51259     965.350     264.239
    93    194.18  -16596.51035  -16601.49757     965.350     264.820
    94    111.36  -16595.97050  -16601.48992     965.350     265.451
    95     59.57  -16595.57722  -16601.48678     965.350     266.123
    96     30.01  -16595.32711  -16601.48614     965.350     266.773
    97     15.67  -16595.20375  -16601.48677     965.350     267.219
    98     11.33  -16595.18406  -16601.48781     965.350     267.459
    99     13.38  -16595.24490  -16601.48879     965.350     267.498
   100     19.61  -16595.36815  -16601.48952     965.350     267.339
   101     28.92  -16595.54341  -16601.49001     965.350     266.979
   102     41.10  -16595.76805  -16601.49046     965.350     266.386
   103     56.46  -16596.04470  -16601.49110     965.350     265.613
   104     75.51  -16596.37754  -16601.49217     965.350     264.615
   105     98.69  -16596.76810  -16601.49385     965.350     263.391
   106    126.08  -16597.21250  -16601.49629     965.350     262.034
   107    157.37  -16597.70067  -16601.49945     965.350     260.450
   108    191.82  -16598.21771  -16601.50314     965.350     258.715
   109    228.41  -16598.74730  -16601.50722     965.350     256.842
   110    266.02  -16599.27500  -16601.51145     965.350     254.808
   111    303.47  -16599.79075  -16601.51564     965.350     252.659
   112    339.68  -16600.29012  -16601.51988     965.350     250.469
   113    373.51  -16600.77200  -16601.52388     965.350     248.122
   114    403.70  -16601.23638  -16601.52761     965.350     245.579
   115    428.79  -16601.68144  -16601.53087     965.350     242.893
   116    447.21  -16602.10175  -16601.53331     965.350     240.133
   117    457.54  -16602.48895  -16601.53470     965.350     237.393
   118    458.83  -16602.83361  -16601.53469     965.350     234.582
   119    450.94  -16603.12844  -16601.53323     965.350     231.656
   120    434.73  -16603.37118  -16601.53068     965.350     228.725
   121    411.93  -16603.56529  -16601.52730     965.350     225.922
   122    384.80  -16603.71908  -16601.52354     965.350     223.292
   123    355.66  -16603.84271  -16601.51967     965.350     220.743
   124    326.45  -16603.94520  -16601.51592     965.350     218.256
   125    298.53  -16604.03276  -16601.51260     965.350     215.944
   126    272.66  -16604.10781  -16601.50970     965.350     213.767
   127    249.12  -16604.16972  -16601.50707     965.350     211.892
   128    227.87  -16604.21664  -16601.50469     965.350     210.149
   129    208.78  -16604.24710  -16601.50263     965.350     208.577
   130    191.73  -16604.26097  -16601.50081     965.350     207.140
   131    176.68  -16604.26016  -16601.49929     965.350     205.803
   132    163.64  -16604.24805  -16601.49799     965.350     204.627
   133    152.69  -16604.22871  -16601.49687     965.350     203.601
   134    143.84  -16604.20555  -16601.49580     965.350     202.663
   135    137.04  -16604.18058  -16601.49465     965.350     201.710
   136    132.14  -16604.15426  -16601.49346     965.350     200.865
   137    128.93  -16604.12531  -16601.49226     965.350     200.076
   138    127.17  -16604.09142  -16601.49105     965.350     199.360
   139    126.66  -16604.05025  -16601.48998     965.350     198.728
   140    127.28  -16604.00015  -16601.48910     965.350     198.059
   141    129.07  -16603.94098  -16601.48855     965.350     197.540
   142    132.21  -16603.87401  -16601.48828     965.350     197.029
   143    137.05  -16603.80200  -16601.48832     965.350     196.500
   144    144.05  -16603.72809  -16601.48861     965.350     196.071
   145    153.70  -16603.65470  -16601.48895     965.350     195.633
   146    166.51  -16603.58314  -16601.48944     965.350     195.297
   147    182.94  -16603.51275  -16601.49021     965.350     195.006
   148    203.32  -16603.44072  -16601.49135     965.350     194.665
   149    227.95  -16603.36314  -16601.49304     965.350     194.462
   150    257.04  -16603.27629  -16601.49556     965.350     194.326
   151    290.75  -16603.17780  -16601.49906     965.350     194.279
   152    329.16  -16603.06773  -16601.50359     965.350     194.353
   153    372.14  -16602.94885  -16601.50891     965.350     194.593
   154    419.12  -16602.82627  -16601.51482     965.350     194.893
   155    468.74  -16602.70538  -16601.52086     965.350     195.172
   156    518.57  -16602.59021  -16601.52650     965.350     195.599
   157    565.06  -16602.48206  -16601.53110     965.350     195.997
   158    603.77  -16602.37939  -16601.53427     965.350     196.370
   159    630.12  -16602.27821  -16601.53576     965.350     196.774
   160    640.42  -16602.17367  -16601.53532     965.350     196.912
   161    632.98  -16602.06366  -16601.53319     965.350     196.792
   162    608.70  -16601.95048  -16601.52970     965.350     196.572
   163    570.72  -16601.83957  -16601.52548     965.350     196.248
   164    523.52  -16601.73649  -16601.52065     965.350     195.586
   165    471.90  -16601.64689  -16601.51538     965.350     194.791
   166    420.06  -16601.57509  -16601.50962     965.350     193.898
   167    371.07  -16601.52249  -16601.50342     965.350     193.157
   168    326.68  -16601.48697  -16601.49653     965.350     192.369
   169    287.69  -16601.46499  -16601.48892     965.350     191.651
   170    254.17  -16601.45276  -16601.48073     965.350     191.038
   171    225.82  -16601.44836  -16601.47337     965.350     190.397
   172    202.19  -16601.45128  -16601.46870     965.350     189.932
   173    182.73  -16601.46091  -16601.46776     965.350     189.532
   174    166.91  -16601.47516  -16601.46968     965.350     189.268
   175    154.28  -16601.49187  -16601.47292     965.350     189.060
   176    144.48  -16601.51028  -16601.47637     965.350     188.941
   177    137.27  -16601.53091  -16601.47940     965.350     188.859
   178    132.52  -16601.55522  -16601.48194     965.350     188.817
   179    130.13  -16601.58441  -16601.48391     965.350     188.805
   180    130.02  -16601.61914  -16601.48537     965.350     188.838
   181    132.11  -16601.65916  -16601.48648     965.350     188.845
   182    136.34  -16601.70332  -16601.48747     965.350     188.925
   183    142.64  -16601.75006  -16601.48873     965.350     189.038
   184    151.00  -16601.79734  -16601.49036     965.350     189.181
   185    161.45  -16601.84357  -16601.49259     965.350     189.364
   186    174.15  -16601.88799  -16601.49555     965.350     189.646
   187    189.37  -16601.93098  -16601.49909     965.350     189.928
   188    207.51  -16601.97443  -16601.50317     965.350     190.271
   189    229.02  -16602.02125  -16601.50763     965.350     190.667
   190    254.39  -16602.07503  -16601.51232     965.350     191.116
   191    283.98  -16602.13956  -16601.51726     965.350     191.539
   192    317.89  -16602.21761  -16601.52247     965.350     192.059
   193    355.70  -16602.31022  -16601.52819     965.350     192.675
   194    396.39  -16602.41624  -16601.53439     965.350     193.380
   195    438.18  -16602.53270  -16601.54085     965.350     194.145
   196    478.64  -16602.65615  -16601.54734     965.350     194.868
   197    514.87  -16602.78387  -16601.55382     965.350     195.793
   198    543.88  -16602.91337  -16601.55918     965.350     196.719
   199    563.11  -16603.04495  -16601.56317     965.350     197.749
   200    570.94  -16603.18054  -16601.56542     965.350     198.671
   201    566.87  -16603.32271  -16601.56615     965.350     199.493
   202    551.59  -16603.47188  -16601.56540     965.350     200.150
   203    526.64  -16603.62537  -16601.56354     965.350     200.746
   204    494.19  -16603.77716  -16601.56080     965.350     201.191
   205    456.59  -16603.91969  -16601.55745     965.350     201.627
   206    416.22  -16604.04575  -16601.55368     965.350     201.995
   207    375.20  -16604.15050  -16601.54966     965.350     202.326
   208    335.34  -16604.23258  -16601.54566     965.350     202.699
   209    298.04  -16604.29410  -16601.54188     965.350     203.122
   210    264.30  -16604.33973  -16601.53856     965.350     203.548
   211    234.65  -16604.37457  -16601.53570     965.350     204.058
   212    209.22  -16604.40278  -16601.53338     965.350     204.534
   213    187.78  -16604.42637  -16601.53173     965.350     205.085
   214    169.87  -16604.44473  -16601.53056     965.350     205.655
   215    154.90  -16604.45583  -16601.52970     965.350     206.280
   216    142.31  -16604.45732  -16601.52907     965.350     206.954
   217    131.67  -16604.44756  -16601.52842     965.350     207.597
   218    122.67  -16604.42655  -16601.52779     965.350     208.326
   219    115.18  -16604.39608  -16601.52730     965.350     209.001
   220    109.19  -16604.35883  -16601.52683     965.350     209.791
   221    104.74  -16604.31787  -16601.52653     965.350     210.635
   222    101.86  -16604.27540  -16601.52638     965.350     211.463
   223    100.55  -16604.23218  -16601.52640     965.350     212.304
   224    100.72  -16604.18714  -16601.52668     965.350     213.222
   225    102.22  -16604.13739  -16601.52703     965.350     214.215
   226    104.90  -16604.07938  -16601.52742     965.350     215.253
   227    108.65  -16604.00971  -16601.52778     965.350     216.346
   228    113.48  -16603.92613  -16601.52806     965.350     217.486
   229    119.59  -16603.82819  -16601.52829     965.350     218.691
   230    127.33  -16603.71704  -16601.52865     965.350     220.065
   231    137.22  -16603.59448  -16601.52934     965.350     221.479
   232    149.81  -16603.46143  -16601.53044     965.350     223.047
   233    165.63  -16603.31630  -16601.53207     965.350     224.748
   234    185.03  -16603.15396  -16601.53421     965.350     226.535
   235    208.14  -16602.96567  -16601.53686     965.350     228.565
   236    234.85  -16602.74014  -16601.53994     965.350     230.830
   237    264.87  -16602.46583  -16601.54310     965.350     233.314
   238    297.81  -16602.13375  -16601.54633     965.350     236.078
   239    333.17  -16601.73891  -16601.54952     965.350     239.127
   240    370.37  -16601.28102  -16601.55286     965.350     242.465
   241    408.43  -16600.76188  -16601.55624     965.350     246.144
   242    445.70  -16600.18277  -16601.55968     965.350     249.938
   243    479.58  -16599.54097  -16601.56279     965.350     254.018
   244    506.51  -16598.82805  -16601.56485     965.350     258.314
   245    522.38  -16598.03212  -16601.56495     965.350     262.754
   246    523.61  -16597.14395  -16601.56235     965.350     267.256
   247    508.28  -16596.16458  -16601.55664     965.350     271.636
   248    477.02  -16595.11128  -16601.54836     965.350     275.943
   249    433.05  -16594.01797  -16601.53878     965.350     280.097
   250    381.38  -16592.92931  -16601.52935     965.350     283.954
   251    327.43  -16591.89091  -16601.52136     965.350     287.373
   252    275.79  -16590.93870  -16601.51539     965.350     290.409
   253    229.50  -16590.09406  -16601.51149     965.350     293.160
   254    190.16  -16589.36466  -16601.50890     965.350     295.462
   255    158.52  -16588.75204  -16601.50695     965.350     297.391
   256    135.28  -16588.25975  -16601.50516     965.350     298.826
   257    121.82  -16587.89967  -16601.50333     965.350     299.793
   258    120.64  -16587.69475  -16601.50179     965.350     300.226
   259    135.55  -16587.67616  -16601.50132     965.350     300.122
   260    171.40  -16587.87599  -16601.50318     965.350     299.373
   261    233.38  -16588.31732  -16601.50892     965.350     297.840
   262    325.72  -16589.00394  -16601.52017     965.350     295.627
   263    449.32  -16589.91263  -16601.53832     965.350     292.858
   264    598.81  -16590.99130  -16601.56377     965.350     289.664
   265    759.69  -16592.16591  -16601.59459     965.350     286.272
   266    908.35  -16593.35825  -16601.62619     965.350     282.698
   267   1017.07  -16594.50758  -16601.65212     965.350     278.611
   268   1063.82  -16595.58498  -16601.66692     965.350     273.984
   269   1041.59  -16596.58959  -16601.66833     965.350     268.582
   270    960.66  -16597.53017  -16601.65814     965.350     262.654
   271    842.45  -16598.40609  -16601.64055     965.350     256.283
   272    709.95  -16599.20262  -16601.61975     965.350     249.975
   273    580.91  -16599.90031  -16601.59891     965.350     244.115
   274    465.80  -16600.48731  -16601.57985     965.350     238.962
   275    369.06  -16600.96663  -16601.56355     965.350     234.629
   276    291.21  -16601.35425  -16601.55026     965.350     231.125
   277    230.64  -16601.67284  -16601.54006     965.350     228.327
   278    184.79  -16601.94425  -16601.53254     965.350     226.063
   279    150.82  -16602.18535  -16601.52732     965.350     224.224
   280    125.98  -16602.40596  -16601.52383     965.350     222.741
   281    107.86  -16602.60973  -16601.52176     965.350     221.465
   282     94.42  -16602.79569  -16601.52051     965.350     220.353
   283     84.13  -16602.96127  -16601.51979     965.350     219.420
   284     75.92  -16603.10418  -16601.51920     965.350     218.575
   285     69.11  -16603.22412  -16601.51860     965.350     217.839
   286     63.37  -16603.32312  -16601.51802     965.350     217.180
   287     58.59  -16603.40488  -16601.51743     965.350     216.529
   288     54.77  -16603.47400  -16601.51695     965.350     215.920
   289     51.90  -16603.53457  -16601.51657     965.350     215.319
   290     49.98  -16603.58949  -16601.51635     965.350     214.716
   291     48.91  -16603.64001  -16601.51627     965.350     214.118
   292     48.57  -16603.68595  -16601.51624     965.350     213.497
   293     48.84  -16603.72656  -16601.51627     965.350     212.916
   294     49.65  -16603.76100  -16601.51625     965.350     212.336
   295     51.00  -16603.78920  -16601.51622     965.350     211.737
   296     52.99  -16603.81196  -16601.51618     965.350     211.175
   297     55.82  -16603.83102  -16601.51611     965.350     210.605
   298     59.80  -16603.84869  -16601.51607     965.350     210.024
   299     65.28  -16603.86738  -16601.51618     965.350     209.452
   300     72.71  -16603.88883  -16601.51646     965.350     208.875
   301     82.55  -16603.91381  -16601.51702     965.350     208.270
   302     95.33  -16603.94173  -16601.51783     965.350     207.696
   303    111.68  -16603.97094  -16601.51901     965.350     207.117
   304    132.33  -16603.99890  -16601.52062     965.350     206.509
   305    158.21  -16604.02307  -16601.52283     965.350     205.961
   306    190.46  -16604.04112  -16601.52564     965.350     205.420
   307    230.40  -16604.05177  -16601.52943     965.350     204.955
   308    279.40  -16604.05428  -16601.53455     965.350     204.579
   309    338.50  -16604.04769  -16601.54130     965.350     204.276
   310    407.90  -16604.03007  -16601.54987     965.350     204.006
   311    486.19  -16603.99784  -16601.56020     965.350     203.922
   312    569.56  -16603.94549  -16601.57170     965.350     203.880
   313    651.31  -16603.86658  -16601.58318     965.350     203.875
   314    722.35  -16603.75611  -16601.59306     965.350     203.874
   315    772.76  -16603.61238  -16601.59947     965.350     203.747
   316    794.47  -16603.43919  -16601.60133     965.350     203.444
   317    783.85  -16603.24509  -16601.59817     965.350     202.754
   318    743.03  -16603.04148  -16601.59030     965.350     201.789
   319    679.07  -16602.84122  -16601.57938     965.350     200.498
   320    601.54  -16602.65526  -16601.56722     965.350     198.969
   321    519.84  -16602.49075  -16601.55535     965.350     197.312
   322    441.25  -16602.35093  -16601.54477     965.350     195.675
   323    370.35  -16602.23566  -16601.53575     965.350     194.225
   324    309.20  -16602.14267  -16601.52840     965.350     192.880
   325    258.12  -16602.06864  -16601.52248     965.350     191.808
   326    216.42  -16602.01042  -16601.51771     965.350     190.919
   327    182.93  -16601.96540  -16601.51405     965.350     190.187
   328    156.36  -16601.93150  -16601.51128     965.350     189.745
   329    135.52  -16601.90706  -16601.50922     965.350     189.387
   330    119.37  -16601.89045  -16601.50751     965.350     189.073
   331    107.02  -16601.88036  -16601.50608     965.350     188.856
   332     97.75  -16601.87535  -16601.50477     965.350     188.737
   333     91.00  -16601.87370  -16601.50346     965.350     188.612
   334     86.26  -16601.87341  -16601.50212     965.350     188.581
   335     83.16  -16601.87233  -16601.50083     965.350     188.524
   336     81.36  -16601.86785  -16601.49947     965.350     188.463
   337     80.62  -16601.85791  -16601.49830     965.350     188.428
