# Step     T (K)     E_KS (eV)    E_tot (eV)   Vol (A^3)    P (kBar)
     1      0.00  -16601.42116  -16601.41483     965.350     187.056
     2      0.14  -16601.42277  -16601.41455     965.350     187.029
     3      0.52  -16601.42713  -16601.41374     965.350     187.024
     4      1.06  -16601.43308  -16601.41265     965.350     186.979
     5      1.63  -16601.43897  -16601.41161     965.350     186.969
     6      2.09  -16601.44314  -16601.41094     965.350     186.928
     7      2.34  -16601.44432  -16601.41090     965.350     186.921
     8      2.32  -16601.44198  -16601.41158     965.350     186.937
     9      2.05  -16601.43651  -16601.41290     965.350     186.947
    10      1.59  -16601.42920  -16601.41458     965.350     187.017
    11      1.12  -16601.42199  -16601.41623     965.350     187.062
    12      0.80  -16601.41707  -16601.41743     965.350     187.072
    13      0.83  -16601.41631  -16601.41787     965.350     187.070
    14      1.35  -16601.42068  -16601.41744     965.350     187.069
    15      2.42  -16601.42981  -16601.41627     965.350     187.056
    16      3.99  -16601.44192  -16601.41480     965.350     187.004
    17      5.91  -16601.45396  -16601.41369     965.350     186.959
    18      7.94  -16601.46194  -16601.41345     965.350     186.951
    19      9.81  -16601.46187  -16601.41430     965.350     187.011
    20     11.34  -16601.45125  -16601.41628     965.350     187.083
    21     12.49  -16601.43059  -16601.41945     965.350     187.183
    22     13.57  -16601.40377  -16601.42345     965.350     187.351
    23     15.21  -16601.37768  -16601.42744     965.350     187.467
    24     18.47  -16601.36127  -16601.43044     965.350     187.575
    25     24.77  -16601.36312  -16601.43158     965.350     187.628
    26     35.77  -16601.38866  -16601.43056     965.350     187.649
    27     53.32  -16601.43751  -16601.42824     965.350     187.628
    28     79.34  -16601.50210  -16601.42725     965.350     187.689
    29    115.84  -16601.56555  -16601.43079     965.350     187.936
    30    165.03  -16601.59837  -16601.43761     965.350     188.594
    31    230.15  -16601.57500  -16601.44874     965.350     189.649
    32    316.66  -16601.49325  -16601.47403     965.350     191.236
    33    433.04  -16601.35984  -16601.51328     965.350     193.331
    34    591.05  -16601.19445  -16601.55551     965.350     195.894
    35    805.30  -16601.05674  -16601.59776     965.350     199.260
    36   1088.60  -16601.03924  -16601.64643     965.350     203.303
    37   1440.91  -16601.22400  -16601.70605     965.350     207.868
    38   1833.52  -16601.63619  -16601.77144     965.350     212.987
    39   2198.36  -16602.21070  -16601.82339     965.350     218.713
    40   2440.28  -16602.82395  -16601.85147     965.350     224.134
    41   2477.84  -16603.32816  -16601.86501     965.350     228.520
    42   2292.17  -16603.55381  -16601.83103     965.350     230.910
    43   1943.71  -16603.51109  -16601.76484     965.350     230.835
    44   1533.80  -16603.34198  -16601.69170     965.350     228.687
    45   1149.81  -16603.20375  -16601.62465     965.350     225.253
    46    837.49  -16603.19450  -16601.56876     965.350     221.791
    47    604.63  -16603.32513  -16601.52529     965.350     218.771
    48    438.25  -16603.54194  -16601.49430     965.350     216.528
    49    319.54  -16603.76478  -16601.47487     965.350     214.903
    50    232.28  -16603.92296  -16601.46362     965.350     214.070
    51    165.77  -16603.98125  -16601.45595     965.350     213.753
    52    114.36  -16603.94799  -16601.44990     965.350     213.786
    53     75.52  -16603.86052  -16601.44574     965.350     214.037
    54     47.79  -16603.76188  -16601.44350     965.350     214.357
    55     29.62  -16603.68453  -16601.44246     965.350     214.746
    56     19.06  -16603.64403  -16601.44184     965.350     215.039
    57     13.81  -16603.63994  -16601.44117     965.350     215.274
    58     11.65  -16603.66069  -16601.44040     965.350     215.460
    59     10.70  -16603.69008  -16601.43965     965.350     215.589
    60      9.70  -16603.71345  -16601.43899     965.350     215.680
    61      8.09  -16603.72207  -16601.43834     965.350     215.751
    62      5.91  -16603.71495  -16601.43764     965.350     215.835
    63      3.60  -16603.69767  -16601.43696     965.350     215.904
    64      1.70  -16603.67903  -16601.43638     965.350     215.941
    65      0.63  -16603.66728  -16601.43609     965.350     215.924
    66      0.51  -16603.66716  -16601.43608     965.350     215.856
    67      1.18  -16603.67884  -16601.43632     965.350     215.769
    68      2.29  -16603.69864  -16601.43673     965.350     215.663
    69      3.42  -16603.72088  -16601.43716     965.350     215.483
    70      4.23  -16603.74034  -16601.43759     965.350     215.284
    71      4.59  -16603.75404  -16601.43801     965.350     215.104
    72      4.57  -16603.76191  -16601.43838     965.350     214.932
    73      4.37  -16603.76639  -16601.43871     965.350     214.750
    74      4.27  -16603.77116  -16601.43897     965.350     214.560
    75      4.49  -16603.77968  -16601.43918     965.350     214.341
    76      5.14  -16603.79385  -16601.43928     965.350     214.092
    77      6.21  -16603.81352  -16601.43927     965.350     213.786
    78      7.55  -16603.83670  -16601.43915     965.350     213.475
    79      8.95  -16603.86033  -16601.43896     965.350     213.169
    80     10.23  -16603.88148  -16601.43869     965.350     212.894
    81     11.31  -16603.89846  -16601.43841     965.350     212.587
    82     12.22  -16603.91140  -16601.43819     965.350     212.246
    83     13.11  -16603.92213  -16601.43801     965.350     211.892
    84     14.21  -16603.93359  -16601.43792     965.350     211.562
    85     15.75  -16603.94853  -16601.43794     965.350     211.173
    86     17.90  -16603.96846  -16601.43812     965.350     210.794
    87     20.70  -16603.99291  -16601.43843     965.350     210.390
    88     24.06  -16604.01955  -16601.43884     965.350     209.937
    89     27.86  -16604.04499  -16601.43933     965.350     209.538
    90     31.97  -16604.06599  -16601.43991     965.350     209.077
    91     36.36  -16604.08071  -16601.44055     965.350     208.651
    92     41.18  -16604.08947  -16601.44128     965.350     208.178
    93     46.78  -16604.09463  -16601.44206     965.350     207.704
    94     53.62  -16604.09969  -16601.44289     965.350     207.225
    95     62.29  -16604.10784  -16601.44370     965.350     206.696
    96     73.32  -16604.12050  -16601.44444     965.350     206.162
    97     87.20  -16604.13627  -16601.44510     965.350     205.588
    98    104.27  -16604.15085  -16601.44578     965.350     204.977
    99    124.86  -16604.15786  -16601.44662     965.350     204.383
   100    149.33  -16604.15075  -16601.44784     965.350     203.868
   101    178.30  -16604.12503  -16601.44960     965.350     203.356
   102    212.79  -16604.08030  -16601.45210     965.350     202.908
   103    254.33  -16604.02077  -16601.45554     965.350     202.499
   104    304.79  -16603.95340  -16601.46006     965.350     202.276
   105    366.10  -16603.88479  -16601.46588     965.350     202.078
   106    439.67  -16603.81705  -16601.47265     965.350     201.924
   107    525.77  -16603.74588  -16601.48028     965.350     201.907
   108    622.92  -16603.66146  -16601.48885     965.350     202.039
   109    727.42  -16603.55113  -16601.49831     965.350     202.533
   110    833.21  -16603.40391  -16601.50848     965.350     203.203
   111    932.32  -16603.21671  -16601.51914     965.350     203.923
   112   1015.95  -16602.99825  -16601.52953     965.350     204.717
   113   1075.83  -16602.76714  -16601.53892     965.350     205.531
   114   1105.61  -16602.54335  -16601.54517     965.350     205.971
   115   1102.17  -16602.34418  -16601.54676     965.350     206.083
   116   1066.28  -16602.17917  -16601.54316     965.350     205.627
   117   1002.27  -16602.04734  -16601.53422     965.350     204.753
   118    917.12  -16601.94156  -16601.52152     965.350     203.491
   119    819.00  -16601.85207  -16601.50739     965.350     201.954
   120    715.93  -16601.77028  -16601.49391     965.350     200.266
   121    614.71  -16601.69219  -16601.48273     965.350     198.628
   122    520.41  -16601.61806  -16601.47443     965.350     197.085
   123    436.17  -16601.55176  -16601.46956     965.350     195.688
   124    363.40  -16601.49712  -16601.46737     965.350     194.376
   125    302.20  -16601.45652  -16601.46658     965.350     193.301
   126    251.78  -16601.43014  -16601.46559     965.350     192.350
   127    210.82  -16601.41678  -16601.46349     965.350     191.601
   128    177.84  -16601.41397  -16601.45992     965.350     191.003
   129    151.35  -16601.41836  -16601.45501     965.350     190.538
   130    129.99  -16601.42650  -16601.44920     965.350     190.035
   131    112.65  -16601.43633  -16601.44358     965.350     189.612
   132     98.46  -16601.44724  -16601.43968     965.350     189.385
   133     86.78  -16601.45905  -16601.43849     965.350     189.119
   134     77.09  -16601.47118  -16601.43995     965.350     188.925
   135     69.04  -16601.48297  -16601.44322     965.350     188.765
   136     62.39  -16601.49407  -16601.44713     965.350     188.667
   137     56.97  -16601.50493  -16601.45075     965.350     188.551
   138     52.70  -16601.51663  -16601.45361     965.350     188.520
   139     49.49  -16601.53033  -16601.45550     965.350     188.441
   140     47.27  -16601.54686  -16601.45638     965.350     188.373
   141     45.94  -16601.56646  -16601.45642     965.350     188.340
   142     45.37  -16601.58876  -16601.45595     965.350     188.316
   143     45.42  -16601.61285  -16601.45535     965.350     188.291
   144     45.96  -16601.63758  -16601.45504     965.350     188.258
   145     46.88  -16601.66165  -16601.45524     965.350     188.253
   146     48.10  -16601.68410  -16601.45603     965.350     188.214
   147     49.64  -16601.70466  -16601.45743     965.350     188.220
   148     51.57  -16601.72372  -16601.45914     965.350     188.260
   149     54.04  -16601.74269  -16601.46099     965.350     188.300
   150     57.28  -16601.76338  -16601.46269     965.350     188.358
   151     61.51  -16601.78762  -16601.46394     965.350     188.451
   152     67.00  -16601.81719  -16601.46483     965.350     188.508
   153     73.94  -16601.85276  -16601.46528     965.350     188.596
   154     82.53  -16601.89420  -16601.46563     965.350     188.735
   155     92.90  -16601.94033  -16601.46613     965.350     188.874
   156    105.20  -16601.98936  -16601.46714     965.350     189.003
   157    119.59  -16602.03945  -16601.46884     965.350     189.195
   158    136.39  -16602.08970  -16601.47145     965.350     189.461
   159    156.03  -16602.14030  -16601.47470     965.350     189.832
   160    179.17  -16602.19354  -16601.47852     965.350     190.206
   161    206.65  -16602.25325  -16601.48261     965.350     190.679
   162    239.45  -16602.32424  -16601.48681     965.350     191.265
   163    278.51  -16602.41103  -16601.49108     965.350     191.920
   164    324.60  -16602.51660  -16601.49556     965.350     192.701
   165    378.03  -16602.64102  -16601.50060     965.350     193.583
   166    438.44  -16602.78077  -16601.50656     965.350     194.660
   167    504.59  -16602.92975  -16601.51373     965.350     195.881
   168    574.37  -16603.08121  -16601.52216     965.350     197.242
   169    644.79  -16603.23012  -16601.53156     965.350     198.806
   170    712.14  -16603.37437  -16601.54125     965.350     200.632
   171    772.25  -16603.51496  -16601.55033     965.350     202.599
   172    820.99  -16603.65669  -16601.55831     965.350     204.438
   173    854.58  -16603.80391  -16601.56481     965.350     206.362
   174    869.96  -16603.95594  -16601.56987     965.350     208.254
   175    865.26  -16604.10451  -16601.57320     965.350     209.890
   176    840.28  -16604.23660  -16601.57451     965.350     211.411
   177    796.71  -16604.33795  -16601.57411     965.350     212.830
   178    737.86  -16604.39579  -16601.57213     965.350     214.092
   179    668.34  -16604.40395  -16601.56837     965.350     215.278
   180    593.36  -16604.36632  -16601.56353     965.350     216.337
   181    517.89  -16604.29355  -16601.55821     965.350     217.404
   182    445.87  -16604.19893  -16601.55336     965.350     218.447
   183    379.88  -16604.09310  -16601.54917     965.350     219.486
   184    321.19  -16603.98286  -16601.54587     965.350     220.512
   185    269.98  -16603.87013  -16601.54331     965.350     221.528
   186    225.69  -16603.75344  -16601.54146     965.350     222.498
   187    187.48  -16603.62999  -16601.54001     965.350     223.529
   188    154.50  -16603.49822  -16601.53865     965.350     224.468
   189    126.05  -16603.35937  -16601.53738     965.350     225.422
   190    101.67  -16603.21765  -16601.53617     965.350     226.348
   191     81.06  -16603.07941  -16601.53517     965.350     227.232
   192     63.99  -16602.95092  -16601.53439     965.350     228.027
   193     50.15  -16602.83689  -16601.53395     965.350     228.807
   194     39.15  -16602.73912  -16601.53373     965.350     229.458
   195     30.48  -16602.65672  -16601.53369     965.350     230.025
   196     23.61  -16602.58685  -16601.53382     965.350     230.510
   197     18.05  -16602.52603  -16601.53393     965.350     230.932
   198     13.43  -16602.47182  -16601.53392     965.350     231.244
   199      9.59  -16602.42384  -16601.53380     965.350     231.519
   200      6.54  -16602.38383  -16601.53358     965.350     231.705
   201      4.43  -16602.35508  -16601.53335     965.350     231.811
   202      3.45  -16602.34117  -16601.53318     965.350     231.826
   203      3.77  -16602.34470  -16601.53314     965.350     231.771
   204      5.46  -16602.36633  -16601.53325     965.350     231.581
   205      8.49  -16602.40459  -16601.53348     965.350     231.258
   206     12.78  -16602.45637  -16601.53373     965.350     230.863
   207     18.23  -16602.51812  -16601.53396     965.350     230.380
   208     24.84  -16602.58715  -16601.53412     965.350     229.836
   209     32.80  -16602.66257  -16601.53413     965.350     229.244
   210     42.51  -16602.74593  -16601.53411     965.350     228.564
   211     54.59  -16602.84051  -16601.53419     965.350     227.862
   212     69.83  -16602.95003  -16601.53454     965.350     227.050
   213     89.06  -16603.07675  -16601.53522     965.350     226.128
   214    113.08  -16603.22017  -16601.53638     965.350     225.129
   215    142.57  -16603.37614  -16601.53802     965.350     224.083
   216    178.08  -16603.53731  -16601.54000     965.350     222.995
   217    220.08  -16603.69506  -16601.54239     965.350     221.893
   218    269.05  -16603.84150  -16601.54509     965.350     220.796
   219    325.48  -16603.97186  -16601.54819     965.350     219.744
   220    389.81  -16604.08515  -16601.55183     965.350     218.754
   221    462.17  -16604.18336  -16601.55635     965.350     217.753
   222    541.89  -16604.26901  -16601.56186     965.350     216.817
   223    626.97  -16604.34233  -16601.56836     965.350     216.004
   224    713.62  -16604.39843  -16601.57535     965.350     215.144
   225    796.09  -16604.42767  -16601.58238     965.350     214.350
   226    867.31  -16604.41786  -16601.58821     965.350     213.532
   227    920.05  -16604.35974  -16601.59216     965.350     212.616
   228    948.46  -16604.25006  -16601.59336     965.350     211.636
   229    949.53  -16604.09502  -16601.59157     965.350     210.428
   230    923.90  -16603.91001  -16601.58723     965.350     209.069
   231    875.43  -16603.71451  -16601.58131     965.350     207.427
   232    810.06  -16603.52527  -16601.57440     965.350     205.616
   233    734.35  -16603.35355  -16601.56726     965.350     203.668
   234    654.31  -16603.20293  -16601.56047     965.350     201.681
   235    574.69  -16603.07054  -16601.55400     965.350     199.803
   236    498.84  -16602.95088  -16601.54804     965.350     197.993
   237    428.90  -16602.83876  -16601.54257     965.350     196.376
   238    366.07  -16602.73179  -16601.53768     965.350     195.021
   239    310.89  -16602.63059  -16601.53354     965.350     193.880
   240    263.39  -16602.53742  -16601.53010     965.350     192.886
   241    223.25  -16602.45518  -16601.52726     965.350     192.064
   242    189.86  -16602.38641  -16601.52502     965.350     191.365
   243    162.45  -16602.33163  -16601.52316     965.350     190.750
   244    140.11  -16602.28952  -16601.52157     965.350     190.237
   245    121.90  -16602.25700  -16601.52008     965.350     189.832
   246    106.95  -16602.23015  -16601.51866     965.350     189.509
   247     94.48  -16602.20501  -16601.51730     965.350     189.210
   248     83.87  -16602.17843  -16601.51605     965.350     188.937
   249     74.69  -16602.14859  -16601.51494     965.350     188.690
   250     66.65  -16602.11523  -16601.51401     965.350     188.538
   251     59.63  -16602.07936  -16601.51328     965.350     188.407
   252     53.56  -16602.04278  -16601.51269     965.350     188.249
   253     48.44  -16602.00748  -16601.51211     965.350     188.161
   254     44.25  -16601.97513  -16601.51151     965.350     188.044
   255     40.93  -16601.94655  -16601.51081     965.350     187.975
   256     38.40  -16601.92161  -16601.51004     965.350     187.879
   257     36.50  -16601.89926  -16601.50918     965.350     187.742
   258     35.08  -16601.87804  -16601.50827     965.350     187.648
   259     34.01  -16601.85655  -16601.50740     965.350     187.593
   260     33.21  -16601.83390  -16601.50664     965.350     187.543
   261     32.64  -16601.81005  -16601.50606     965.350     187.512
   262     32.37  -16601.78580  -16601.50576     965.350     187.460
   263     32.50  -16601.76249  -16601.50563     965.350     187.436
   264     33.20  -16601.74180  -16601.50564     965.350     187.449
   265     34.63  -16601.72522  -16601.50569     965.350     187.482
   266     36.95  -16601.71357  -16601.50563     965.350     187.523
   267     40.32  -16601.70682  -16601.50538     965.350     187.584
   268     44.82  -16601.70388  -16601.50482     965.350     187.645
   269     50.54  -16601.70287  -16601.50391     965.350     187.726
   270     57.57  -16601.70133  -16601.50262     965.350     187.803
   271     66.04  -16601.69702  -16601.50106     965.350     187.919
   272     76.18  -16601.68862  -16601.49970     965.350     188.069
   273     88.36  -16601.67574  -16601.49918     965.350     188.243
   274    103.10  -16601.65881  -16601.50012     965.350     188.462
   275    121.10  -16601.63826  -16601.50256     965.350     188.691
   276    143.29  -16601.61452  -16601.50603     965.350     188.967
   277    170.80  -16601.58811  -16601.50975     965.350     189.284
   278    205.01  -16601.56027  -16601.51345     965.350     189.709
   279    247.55  -16601.53244  -16601.51713     965.350     190.165
   280    300.14  -16601.50580  -16601.52097     965.350     190.616
   281    364.47  -16601.48122  -16601.52561     965.350     191.165
   282    441.93  -16601.45869  -16601.53158     965.350     191.920
   283    533.12  -16601.43779  -16601.53916     965.350     192.865
   284    637.40  -16601.41993  -16601.54926     965.350     194.066
   285    752.19  -16601.40837  -16601.56235     965.350     195.482
   286    872.30  -16601.40769  -16601.57753     965.350     197.100
   287    989.67  -16601.42457  -16601.59318     965.350     198.874
   288   1093.77  -16601.46669  -16601.60717     965.350     200.658
   289   1173.15  -16601.54235  -16601.61763     965.350     202.473
   290   1217.89  -16601.66128  -16601.62408     965.350     203.967
   291   1222.07  -16601.82916  -16601.62640     965.350     205.030
   292   1185.12  -16602.04166  -16601.62459     965.350     205.718
   293   1112.11  -16602.28591  -16601.61905     965.350     205.769
   294   1012.26  -16602.54391  -16601.61079     965.350     205.453
   295    896.58  -16602.79534  -16601.60068     965.350     204.868
   296    775.72  -16603.02432  -16601.58972     965.350     204.033
   297    658.42  -16603.22311  -16601.57889     965.350     203.335
   298    550.71  -16603.39101  -16601.56882     965.350     202.656
   299    455.97  -16603.53259  -16601.56016     965.350     202.116
   300    375.35  -16603.65380  -16601.55302     965.350     201.725
   301    308.36  -16603.75966  -16601.54748     965.350     201.491
   302    253.57  -16603.85240  -16601.54329     965.350     201.373
   303    209.07  -16603.93189  -16601.54022     965.350     201.358
   304    172.92  -16603.99641  -16601.53795     965.350     201.417
   305    143.37  -16604.04421  -16601.53626     965.350     201.519
   306    119.01  -16604.07452  -16601.53491     965.350     201.697
   307     98.78  -16604.08840  -16601.53375     965.350     201.910
   308     81.93  -16604.08890  -16601.53271     965.350     202.155
   309     67.98  -16604.08046  -16601.53178     965.350     202.412
   310     56.58  -16604.06793  -16601.53104     965.350     202.702
   311     47.42  -16604.05539  -16601.53050     965.350     202.966
   312     40.17  -16604.04528  -16601.53017     965.350     203.253
   313     34.49  -16604.03814  -16601.53003     965.350     203.527
